block,trial,image,type,thisN,thisTrialN,thisRepN,response.keys,response.rt,response.duration,trial_loop.thisRepN,trial_loop.thisTrialN,trial_loop.thisN,trial_loop.thisIndex,thisRow.t,notes,Welcome.started,text.started,text_2.started,key_resp.started,Welcome.stopped,key_resp.keys,key_resp.rt,key_resp.duration,trial_ex.started,cross.started,cross.stopped,faces.started,response.started,faces.stopped,response.stopped,trial_ex.stopped,trial_loop.response.keys,trial_loop.response.rt,trial_loop.response.duration,end_block.started,pressed_trials,text_3.started,text_3.stopped,end_block.stopped,participant,session,date,expName,psychopyVersion,frameRate,expStart,
,,,,,,,,,,,,,,,,0.00899040000513196,0.0140936999960104,0.0140936999960104,0.0140936999960104,0.9624684000009438,space,0.9071666000090772,None,,,,,,,,,,,,,,,,,873181,001,2025-05-04_15h50.51.065,project,2024.2.4,166.02608269856987,2025-05-04 15h50.55.296725 +0700,
1,1,faces/unknown/unknown_48.jpg,unknown,0,0,0,space,0.28499529999680817,0.0786629000067478,0,0,0,0,1.0324045000015758,,,,,,,,,,1.0263854999939213,1.9534184999938589,2.6443009999929927,2.9653836999932537,2.9653836999932537,4.983664300001692,4.983664300001692,4.949534200000926,space,0.28499529999680817,0.0786629000067478,,,,,,873181,001,2025-05-04_15h50.51.065,project,2024.2.4,166.02608269856987,2025-05-04 15h50.55.296725 +0700,
1,2,faces/unknown/unknown_174.jpg,unknown,1,1,0,space,0.701687499997206,0.0943563000037102,0,1,1,1,4.983664300001692,,,,,,,,,,4.978379199994379,5.94101939999382,6.631949999995413,6.941310099995462,6.941310099995462,8.965012200002093,8.965012200002093,8.93044130000635,space,0.701687499997206,0.0943563000037102,,,,,,873181,001,2025-05-04_15h50.51.065,project,2024.2.4,166.02608269856987,2025-05-04 15h50.55.296725 +0700,
1,3,faces/unknown/unknown_66.jpg,unknown,2,2,0,None,,,0,2,2,2,8.965012200002093,,,,,,,,,,8.959300500006066,9.922862499995972,10.613668599995435,10.922742700000526,10.922742700000526,12.947205899996334,12.947205899996334,12.912382700000308,None,,,,,,,,873181,001,2025-05-04_15h50.51.065,project,2024.2.4,166.02608269856987,2025-05-04 15h50.55.296725 +0700,
1,4,faces/unknown/unknown_267.jpg,unknown,3,3,0,space,0.5754316999955336,0.05065429999376647,0,3,3,3,12.947205899996334,,,,,,,,,,12.93923590000486,13.904449099994963,14.595362299995031,14.90451039999607,14.90451039999607,16.92888170000515,16.92888170000515,16.894476700006635,space,0.5754316999955336,0.05065429999376647,,,,,,873181,001,2025-05-04_15h50.51.065,project,2024.2.4,166.02608269856987,2025-05-04 15h50.55.296725 +0700,
1,5,faces/unknown/unknown_210.jpg,unknown,4,4,0,None,,,0,4,4,4,16.92888170000515,,,,,,,,,,16.92229299999599,17.885949699993944,18.577525700005936,18.886175999999978,18.886175999999978,20.910101000001305,20.910101000001305,20.875218899993342,None,,,,,,,,873181,001,2025-05-04_15h50.51.065,project,2024.2.4,166.02608269856987,2025-05-04 15h50.55.296725 +0700,
1,6,faces/unknown/unknown_132.jpg,unknown,5,5,0,space,1.90958779999346,None,0,5,5,5,20.910101000001305,,,,,,,,,,20.90565780000179,21.868311500002164,22.558780999999726,22.868493799993303,22.868493799993303,24.892315999997663,24.892315999997663,24.85749460000079,space,1.90958779999346,None,,,,,,873181,001,2025-05-04_15h50.51.065,project,2024.2.4,166.02608269856987,2025-05-04 15h50.55.296725 +0700,
1,7,faces/unknown/unknown_26.jpg,unknown,6,6,0,space,1.1840209999936633,0.17851120000705123,0,6,6,6,24.892315999997663,,,,,,,,,,24.887261800002307,25.849685199995292,26.540543800001615,26.849918699997943,26.849918699997943,28.873846899994533,28.873846899994533,28.83914179999556,space,1.1840209999936633,0.17851120000705123,,,,,,873181,001,2025-05-04_15h50.51.065,project,2024.2.4,166.02608269856987,2025-05-04 15h50.55.296725 +0700,
1,8,faces/unknown/unknown_8.jpg,unknown,7,7,0,space,0.8208398999995552,0.0889244999998482,0,7,7,7,28.873846899994533,,,,,,,,,,28.867583600003854,29.8314018999954,30.52206109999679,30.831294000003254,30.831294000003254,32.849663899993175,32.849663899993175,32.82091150000633,space,0.8208398999995552,0.0889244999998482,,,,,,873181,001,2025-05-04_15h50.51.065,project,2024.2.4,166.02608269856987,2025-05-04 15h50.55.296725 +0700,
1,9,faces/unknown/unknown_68.jpg,unknown,8,8,0,None,,,0,8,8,8,32.849663899993175,,,,,,,,,,32.84709169999405,33.813165999992634,34.5039298000047,34.81327899999451,34.81327899999451,36.83786529999634,36.83786529999634,36.80272789999435,None,,,,,,,,873181,001,2025-05-04_15h50.51.065,project,2024.2.4,166.02608269856987,2025-05-04 15h50.55.296725 +0700,
1,10,faces/unknown/unknown_44.jpg,unknown,9,9,0,None,,,0,9,9,9,36.83786529999634,,,,,,,,,,36.82934929999465,37.79515010000614,38.4922430000006,38.795087599995895,38.795087599995895,40.813196400005836,40.813196400005836,40.78408450000279,None,,,,,,,,873181,001,2025-05-04_15h50.51.065,project,2024.2.4,166.02608269856987,2025-05-04 15h50.55.296725 +0700,
1,11,faces/unknown/unknown_128.jpg,unknown,10,10,0,None,,,0,10,10,10,40.813196400005836,,,,,,,,,,40.809391000002506,41.7763527000061,42.4673358,42.777132999995956,42.777132999995956,44.7957172000024,44.7957172000024,44.766168799993466,None,,,,,,,,873181,001,2025-05-04_15h50.51.065,project,2024.2.4,166.02608269856987,2025-05-04 15h50.55.296725 +0700,
1,12,faces/unknown/unknown_156.jpg,unknown,11,11,0,None,,,0,11,11,11,44.7957172000024,,,,,,,,,,44.79216620000079,45.75860689999536,46.4549920999998,46.75844089999737,46.75844089999737,48.78277469999739,48.78277469999739,48.74843979999423,None,,,,,,,,873181,001,2025-05-04_15h50.51.065,project,2024.2.4,166.02608269856987,2025-05-04 15h50.55.296725 +0700,
1,13,faces/unknown/unknown_203.jpg,unknown,12,12,0,None,,,0,12,12,12,48.78277469999739,,,,,,,,,,48.77726279999479,49.73991980000574,50.43085400000564,50.74024569999892,50.74024569999892,52.7645182999986,52.7645182999986,52.72984759999963,None,,,,,,,,873181,001,2025-05-04_15h50.51.065,project,2024.2.4,166.02608269856987,2025-05-04 15h50.55.296725 +0700,
1,14,faces/unknown/unknown_28.jpg,unknown,13,13,0,None,,,0,13,13,13,52.7645182999986,,,,,,,,,,52.75890000000072,53.72179840000172,54.41252699999313,54.721887899999274,54.721887899999274,56.74690080000437,56.74690080000437,56.71194579999428,None,,,,,,,,873181,001,2025-05-04_15h50.51.065,project,2024.2.4,166.02608269856987,2025-05-04 15h50.55.296725 +0700,
1,15,faces/unknown/unknown_285.jpg,unknown,14,14,0,None,,,0,14,14,14,56.74690080000437,,,,,,,,,,56.7411490999948,57.703482700002496,58.39494189999823,58.70375709999644,58.70375709999644,60.72805520000111,60.72805520000111,60.69257020000077,None,,,,,,,,873181,001,2025-05-04_15h50.51.065,project,2024.2.4,166.02608269856987,2025-05-04 15h50.55.296725 +0700,
1,16,faces/unknown/unknown_241.jpg,unknown,15,15,0,None,,,0,15,15,15,60.72805520000111,,,,,,,,,,60.7203920000029,61.68521769999643,62.3761838000064,62.68526980000024,62.68526980000024,64.71008029999211,64.71008029999211,64.6748751999985,None,,,,,,,,873181,001,2025-05-04_15h50.51.065,project,2024.2.4,166.02608269856987,2025-05-04 15h50.55.296725 +0700,
1,17,faces/unknown/unknown_204.jpg,unknown,16,16,0,None,,,0,16,16,16,64.71008029999211,,,,,,,,,,64.70331280000391,65.66716260000248,66.35819889999402,66.66727279999759,66.66727279999759,68.69153789999837,68.69153789999837,68.656931599995,None,,,,,,,,873181,001,2025-05-04_15h50.51.065,project,2024.2.4,166.02608269856987,2025-05-04 15h50.55.296725 +0700,
1,18,faces/unknown/unknown_227.jpg,unknown,17,17,0,None,,,0,17,17,17,68.69153789999837,,,,,,,,,,68.68674330000067,69.64865800000553,70.33976279999479,70.64881610000157,70.64881610000157,72.67907090000517,72.67907090000517,72.63443799999368,None,,,,,,,,873181,001,2025-05-04_15h50.51.065,project,2024.2.4,166.02608269856987,2025-05-04 15h50.55.296725 +0700,
1,19,faces/unknown/unknown_168.jpg,unknown,18,18,0,None,,,0,18,18,18,72.67907090000517,,,,,,,,,,72.67462269999669,73.62478090000513,74.32169379999686,74.624318400005,74.624318400005,76.65499100000306,76.65499100000306,76.61591059999773,None,,,,,,,,873181,001,2025-05-04_15h50.51.065,project,2024.2.4,166.02608269856987,2025-05-04 15h50.55.296725 +0700,
1,20,faces/unknown/unknown_281.jpg,unknown,19,19,0,None,,,0,19,19,19,76.65499100000306,,,,,,,,,,76.6476163000043,77.60610170000291,78.29674760000489,78.60609929999919,78.60609929999919,80.63056940000388,80.63056940000388,80.59538329999486,None,,,,,,,,873181,001,2025-05-04_15h50.51.065,project,2024.2.4,166.02608269856987,2025-05-04 15h50.55.296725 +0700,
1,21,faces/unknown/unknown_101.jpg,unknown,20,20,0,None,,,0,20,20,20,80.63056940000388,,,,,,,,,,80.62459859999944,81.58774740000081,82.2783669000055,82.58792720000201,82.58792720000201,84.61281989999407,84.61281989999407,84.57710270000098,None,,,,,,,,873181,001,2025-05-04_15h50.51.065,project,2024.2.4,166.02608269856987,2025-05-04 15h50.55.296725 +0700,
1,22,faces/unknown/unknown_245.jpg,unknown,21,21,0,None,,,0,21,21,21,84.61281989999407,,,,,,,,,,84.60682689999521,85.56941660000302,86.26056779999635,86.56953700000304,86.56953700000304,88.59397269999317,88.59397269999317,88.55925570000545,None,,,,,,,,873181,001,2025-05-04_15h50.51.065,project,2024.2.4,166.02608269856987,2025-05-04 15h50.55.296725 +0700,
1,23,faces/unknown/unknown_151.jpg,unknown,22,22,0,None,,,0,22,22,22,88.59397269999317,,,,,,,,,,88.58709230000386,89.55743909999728,90.25403039999946,90.55168180000328,90.55168180000328,92.5754384000029,92.5754384000029,92.54081930000393,None,,,,,,,,873181,001,2025-05-04_15h50.51.065,project,2024.2.4,166.02608269856987,2025-05-04 15h50.55.296725 +0700,
1,24,faces/unknown/unknown_189.jpg,unknown,23,23,0,None,,,0,23,23,23,92.5754384000029,,,,,,,,,,92.56950640000287,93.5328914999991,94.22423750000598,94.53291739999258,94.53291739999258,96.5511461999995,96.5511461999995,96.52198200000566,None,,,,,,,,873181,001,2025-05-04_15h50.51.065,project,2024.2.4,166.02608269856987,2025-05-04 15h50.55.296725 +0700,
1,25,faces/unknown/unknown_148.jpg,unknown,24,24,0,None,,,0,24,24,24,96.5511461999995,,,,,,,,,,96.54768709999917,97.51457189999928,98.20551980000164,98.51455100000021,98.51455100000021,100.53888880000159,100.53888880000159,100.50440109999909,None,,,,,,,,873181,001,2025-05-04_15h50.51.065,project,2024.2.4,166.02608269856987,2025-05-04 15h50.55.296725 +0700,
1,26,faces/unknown/unknown_123.jpg,unknown,25,25,0,None,,,0,25,25,25,100.53888880000159,,,,,,,,,,100.53178029999253,101.49642939999467,102.18704249999428,102.49655349999375,102.49655349999375,104.5205152999988,104.5205152999988,104.48647000000346,None,,,,,,,,873181,001,2025-05-04_15h50.51.065,project,2024.2.4,166.02608269856987,2025-05-04 15h50.55.296725 +0700,
1,27,faces/unknown/unknown_127.jpg,unknown,26,26,0,None,,,0,26,26,26,104.5205152999988,,,,,,,,,,104.51731579999614,105.47845749999397,106.17519090000133,106.47814330000256,106.47814330000256,108.50277059999644,108.50277059999644,108.46783290000167,None,,,,,,,,873181,001,2025-05-04_15h50.51.065,project,2024.2.4,166.02608269856987,2025-05-04 15h50.55.296725 +0700,
1,28,faces/unknown/unknown_292.jpg,unknown,27,27,0,None,,,0,27,27,27,108.50277059999644,,,,,,,,,,108.49595729999419,109.46018359999289,110.15696439999738,110.45992910000496,110.45992910000496,112.48474099999294,112.48474099999294,112.44972770000459,None,,,,,,,,873181,001,2025-05-04_15h50.51.065,project,2024.2.4,166.02608269856987,2025-05-04 15h50.55.296725 +0700,
1,29,faces/unknown/unknown_282.jpg,unknown,28,28,0,None,,,0,28,28,28,112.48474099999294,,,,,,,,,,112.48029769999266,113.441665499995,114.1323132999969,114.44159489999583,114.44159489999583,116.46594229999755,116.46594229999755,116.43086100000073,None,,,,,,,,873181,001,2025-05-04_15h50.51.065,project,2024.2.4,166.02608269856987,2025-05-04 15h50.55.296725 +0700,
1,30,faces/unknown/unknown_41.jpg,unknown,29,29,0,None,,,0,29,29,29,116.46594229999755,,,,,,,,,,116.45887620000576,117.42311499999778,118.11465699999826,118.42342570000619,118.42342570000619,120.44124879999436,120.44124879999436,120.40777799999341,None,,,,,,,,873181,001,2025-05-04_15h50.51.065,project,2024.2.4,166.02608269856987,2025-05-04 15h50.55.296725 +0700,
1,31,faces/unknown/unknown_1.jpg,unknown,30,30,0,None,,,0,30,30,30,120.44124879999436,,,,,,,,,,120.43593530000362,121.39895639999304,122.08971559999918,122.39923809999891,122.39923809999891,124.42338189999282,124.42338189999282,124.38826920000429,None,,,,,,,,873181,001,2025-05-04_15h50.51.065,project,2024.2.4,166.02608269856987,2025-05-04 15h50.55.296725 +0700,
1,32,faces/unknown/unknown_85.jpg,unknown,31,31,0,None,,,0,31,31,31,124.42338189999282,,,,,,,,,,124.4152771999943,125.38081170000078,126.07205699999759,126.38117350000539,126.38117350000539,128.39883920000284,128.39883920000284,128.36982680000074,None,,,,,,,,873181,001,2025-05-04_15h50.51.065,project,2024.2.4,166.02608269856987,2025-05-04 15h50.55.296725 +0700,
1,33,faces/unknown/unknown_228.jpg,unknown,32,32,0,None,,,0,32,32,32,128.39883920000284,,,,,,,,,,128.3967280999932,129.36234469999908,130.05320340000617,130.3623568000039,130.3623568000039,132.38071559999662,132.38071559999662,132.35203080000065,None,,,,,,,,873181,001,2025-05-04_15h50.51.065,project,2024.2.4,166.02608269856987,2025-05-04 15h50.55.296725 +0700,
1,34,faces/unknown/unknown_199.jpg,unknown,33,33,0,None,,,0,33,33,33,132.38071559999662,,,,,,,,,,132.37812330000452,133.34424419999414,134.03514120000182,134.3441787000047,134.3441787000047,136.36835239999346,136.36835239999346,136.3335825999966,None,,,,,,,,873181,001,2025-05-04_15h50.51.065,project,2024.2.4,166.02608269856987,2025-05-04 15h50.55.296725 +0700,
1,35,faces/unknown/unknown_9.jpg,unknown,34,34,0,None,,,0,34,34,34,136.36835239999346,,,,,,,,,,136.36150709999492,137.32636049999564,138.02302219999547,138.32584599999245,138.32584599999245,140.34456090000458,140.34456090000458,140.31536249999772,None,,,,,,,,873181,001,2025-05-04_15h50.51.065,project,2024.2.4,166.02608269856987,2025-05-04 15h50.55.296725 +0700,
1,36,faces/unknown/unknown_167.jpg,unknown,35,35,0,None,,,0,35,35,35,140.34456090000458,,,,,,,,,,140.34181519999402,141.3075441999972,141.9983069000009,142.30825099999493,142.30825099999493,144.33215020000353,144.33215020000353,144.29712930000096,None,,,,,,,,873181,001,2025-05-04_15h50.51.065,project,2024.2.4,166.02608269856987,2025-05-04 15h50.55.296725 +0700,
1,37,faces/unknown/unknown_39.jpg,unknown,36,36,0,None,,,0,36,36,36,144.33215020000353,,,,,,,,,,144.32904769999732,145.28912489999493,145.98011429999315,146.28941860000486,146.28941860000486,148.31383470000583,148.31383470000583,148.27863879999495,None,,,,,,,,873181,001,2025-05-04_15h50.51.065,project,2024.2.4,166.02608269856987,2025-05-04 15h50.55.296725 +0700,
1,38,faces/unknown/unknown_95.jpg,unknown,37,37,0,None,,,0,37,37,37,148.31383470000583,,,,,,,,,,148.30582219999633,149.2706390999956,149.96196020000207,150.27137790000415,150.27137790000415,152.28964079999423,152.28964079999423,152.2604141000047,None,,,,,,,,873181,001,2025-05-04_15h50.51.065,project,2024.2.4,166.02608269856987,2025-05-04 15h50.55.296725 +0700,
1,39,faces/unknown/unknown_30.jpg,unknown,38,38,0,None,,,0,38,38,38,152.28964079999423,,,,,,,,,,152.28675189999922,153.252696800002,153.94367110000167,154.2529926999996,154.2529926999996,156.2772527000052,156.2772527000052,156.24206999999296,None,,,,,,,,873181,001,2025-05-04_15h50.51.065,project,2024.2.4,166.02608269856987,2025-05-04 15h50.55.296725 +0700,
1,40,faces/unknown/unknown_37.jpg,unknown,39,39,0,None,,,0,39,39,39,156.2772527000052,,,,,,,,,,156.2724820000003,157.2352408000006,157.93156860000454,158.23472629999742,158.23472629999742,160.27114319999237,160.27114319999237,160.22701109999616,None,,,,,,,,873181,001,2025-05-04_15h50.51.065,project,2024.2.4,166.02608269856987,2025-05-04 15h50.55.296725 +0700,
1,41,faces/unknown/unknown_238.jpg,unknown,40,40,0,None,,,0,40,40,40,160.27114319999237,,,,,,,,,,160.26305069999944,161.2220765999955,161.91372939999565,162.2168396000052,162.2168396000052,164.2408085999923,164.2408085999923,164.20572319999337,None,,,,,,,,873181,001,2025-05-04_15h50.51.065,project,2024.2.4,166.02608269856987,2025-05-04 15h50.55.296725 +0700,
1,42,faces/unknown/unknown_63.jpg,unknown,41,41,0,None,,,0,41,41,41,164.2408085999923,,,,,,,,,,164.23605490000045,165.19830459999503,165.90720970000257,166.20542579999892,166.20542579999892,168.2283521000063,168.2283521000063,168.19398890000593,None,,,,,,,,873181,001,2025-05-04_15h50.51.065,project,2024.2.4,166.02608269856987,2025-05-04 15h50.55.296725 +0700,
1,43,faces/unknown/unknown_265.jpg,unknown,42,42,0,None,,,0,42,42,42,168.2283521000063,,,,,,,,,,168.22043659999326,169.1861940999952,169.87716380000347,170.1863916000002,170.1863916000002,172.2163470999949,172.2163470999949,172.1773056999955,None,,,,,,,,873181,001,2025-05-04_15h50.51.065,project,2024.2.4,166.02608269856987,2025-05-04 15h50.55.296725 +0700,
1,44,faces/unknown/unknown_67.jpg,unknown,43,43,0,None,,,0,43,43,43,172.2163470999949,,,,,,,,,,172.21179729999858,173.16824460000498,173.86519329999282,174.16772139999375,174.16772139999375,176.1916984999989,176.1916984999989,176.15826959999686,None,,,,,,,,873181,001,2025-05-04_15h50.51.065,project,2024.2.4,166.02608269856987,2025-05-04 15h50.55.296725 +0700,
1,45,faces/unknown/unknown_69.jpg,unknown,44,44,0,None,,,0,44,44,44,176.1916984999989,,,,,,,,,,176.18913339999563,177.15522559999954,177.85264339999412,178.14934669999639,178.14934669999639,180.17383929999778,180.17383929999778,180.13910709999618,None,,,,,,,,873181,001,2025-05-04_15h50.51.065,project,2024.2.4,166.02608269856987,2025-05-04 15h50.55.296725 +0700,
1,46,faces/unknown/unknown_61.jpg,unknown,45,45,0,None,,,0,45,45,45,180.17383929999778,,,,,,,,,,180.16910189999908,181.1313580999995,181.83391420000407,182.13711579999654,182.13711579999654,184.18548260000534,184.18548260000534,184.1283143000037,None,,,,,,,,873181,001,2025-05-04_15h50.51.065,project,2024.2.4,166.02608269856987,2025-05-04 15h50.55.296725 +0700,
1,47,faces/unknown/unknown_183.jpg,unknown,46,46,0,None,,,0,46,46,46,184.18548260000534,,,,,,,,,,184.18053579999832,185.11897379999573,185.80973690000246,186.124962899994,186.124962899994,188.14889149999362,188.14889149999362,188.1106746000005,None,,,,,,,,873181,001,2025-05-04_15h50.51.065,project,2024.2.4,166.02608269856987,2025-05-04 15h50.55.296725 +0700,
1,48,faces/unknown/unknown_277.jpg,unknown,47,47,0,None,,,0,47,47,47,188.14889149999362,,,,,,,,,,188.14640359999612,189.10097400000086,189.7919203000056,190.100880900005,190.100880900005,192.09472059999825,192.09472059999825,192.09094819999882,None,,,,,,,,873181,001,2025-05-04_15h50.51.065,project,2024.2.4,166.02608269856987,2025-05-04 15h50.55.296725 +0700,
,,,,,,,,,,,,,,,,,,,,,,,,,,,,,,,,,,,192.09104800000205,"{1, 2, 4, 6, 7, 8}",192.09472059999825,193.0889024999924,193.08571179999853,873181,001,2025-05-04_15h50.51.065,project,2024.2.4,166.02608269856987,2025-05-04 15h50.55.296725 +0700,
